Folder: MVFIT-GAN/data (part 2)

File: #8 (45도_충전0.5C_방전1.5C)_충방전싸이클_result.csv
,Cycle,Voltage(V),Current(A),Capacity(Ah),Power(W),wattHour(Wh),CELL1,CELL2,CELL3,CELL4,CELL5,CELL6,CELL7,CELL8,CELL9,CELL10,CELL11,CELL12,CELL13,CELL14,CELL15,CELL16,CELL17,CELL18,CELL19,CELL20,CELL21,CELL22,CELL23,CELL24
0,1,73.087,-166.781,-94.446,-12189.607,-7980.225,3.0,3.019,3.045,3.038,3.076,3.04,3.091,3.084,3.062,3.068,3.094,3.019,3.013,3.042,3.047,3.025,3.068,3.061,3.07,3.083,3.023,3.053,3.099,3.024
12,13,72.87,-166.82,-94.56,-12156.12,-7997.738,3.0,3.012,3.044,3.038,3.07,3.036,3.079,3.072,3.056,3.06,3.083,3.018,3.007,3.032,3.042,3.015,3.051,3.044,3.057,3.074,3.02,3.049,3.092,3.022
24,25,72.661,-166.786,-94.747,-12118.789,-8017.136,3.0,3.004,3.038,3.031,3.062,3.028,3.068,3.06,3.047,3.05,3.073,3.017,3.002,3.022,3.033,3.003,3.036,3.03,3.044,3.063,3.011,3.04,3.084,3.018
36,37,72.67,-166.807,-94.68,-12121.82,-8013.632,3.004,3.005,3.04,3.033,3.062,3.028,3.064,3.057,3.045,3.048,3.069,3.02,3.004,3.021,3.033,3.0,3.033,3.027,3.04,3.061,3.01,3.039,3.081,3.019
48,49,72.699,-166.807,-94.588,-12126.714,-8007.621,3.009,3.007,3.042,3.036,3.063,3.03,3.063,3.057,3.045,3.049,3.069,3.023,3.006,3.021,3.034,3.0,3.033,3.027,3.039,3.06,3.012,3.04,3.081,3.022
60,61,72.729,-166.819,-94.661,-12132.548,-8013.543,3.012,3.008,3.044,3.038,3.063,3.031,3.062,3.056,3.046,3.05,3.07,3.025,3.007,3.023,3.035,3.0,3.032,3.025,3.04,3.06,3.013,3.042,3.082,3.024
72,73,72.746,-166.783,-94.419,-12132.753,-7994.014,3.017,3.011,3.048,3.041,3.066,3.032,3.062,3.057,3.047,3.05,3.067,3.026,3.01,3.023,3.037,3.0,3.033,3.027,3.039,3.06,3.015,3.042,3.081,3.026
84,85,72.778,-166.846,-94.346,-12142.789,-7988.851,3.019,3.012,3.05,3.043,3.067,3.033,3.06,3.056,3.047,3.051,3.065,3.028,3.01,3.024,3.038,3.0,3.034,3.028,3.038,3.06,3.016,3.042,3.081,3.027
96,97,72.794,-166.789,-94.408,-12141.313,-7996.979,3.023,3.013,3.052,3.045,3.067,3.034,3.058,3.055,3.048,3.053,3.066,3.032,3.013,3.025,3.039,3.0,3.032,3.026,3.038,3.059,3.017,3.044,3.081,3.029
108,109,72.772,-166.804,-94.225,-12138.72,-7981.862,3.028,3.015,3.056,3.048,3.07,3.036,3.058,3.057,3.049,3.054,3.064,3.032,3.015,3.027,3.041,3.0,3.033,3.028,3.038,3.06,3.018,3.045,3.081,3.03
120,121,72.832,-166.816,-94.096,-12149.52,-7972.132,3.03,3.017,3.059,3.05,3.072,3.037,3.057,3.057,3.049,3.055,3.062,3.031,3.016,3.028,3.043,3.0,3.034,3.029,3.038,3.06,3.019,3.046,3.08,3.029
132,133,72.819,-166.803,-93.928,-12146.362,-7956.142,3.03,3.017,3.061,3.05,3.072,3.037,3.056,3.057,3.049,3.056,3.06,3.027,3.014,3.028,3.044,3.0,3.034,3.028,3.039,3.06,3.019,3.045,3.079,3.026
144,145,72.816,-166.801,-93.781,-12145.771,-7942.566,3.031,3.016,3.062,3.05,3.073,3.037,3.055,3.057,3.048,3.057,3.058,3.025,3.014,3.029,3.045,3.0,3.034,3.027,3.039,3.061,3.02,3.046,3.078,3.025
156,157,72.766,-166.772,-93.646,-12135.306,-7930.645,3.031,3.015,3.064,3.05,3.073,3.037,3.053,3.056,3.047,3.057,3.056,3.023,3.013,3.029,3.046,3.0,3.033,3.024,3.039,3.06,3.02,3.045,3.077,3.024
168,169,72.777,-166.79,-93.583,-12138.515,-7924.661,3.03,3.014,3.063,3.049,3.073,3.035,3.052,3.054,3.045,3.058,3.054,3.021,3.012,3.029,3.046,3.0,3.031,3.021,3.038,3.06,3.02,3.046,3.076,3.024
180,181,72.759,-166.86,-93.516,-12140.538,-7919.085,3.031,3.015,3.063,3.049,3.072,3.035,3.05,3.053,3.044,3.059,3.054,3.023,3.013,3.03,3.046,3.0,3.029,3.018,3.036,3.061,3.02,3.047,3.076,3.025
192,193,72.795,-166.816,-93.672,-12143.359,-7931.089,3.027,3.013,3.06,3.05,3.068,3.034,3.049,3.052,3.045,3.056,3.06,3.027,3.01,3.028,3.044,3.0,3.025,3.012,3.036,3.06,3.021,3.049,3.078,3.026
204,205,72.851,-166.791,-93.478,-12150.897,-7914.783,3.033,3.015,3.062,3.053,3.07,3.037,3.05,3.053,3.047,3.058,3.063,3.034,3.015,3.03,3.046,3.0,3.023,3.009,3.036,3.062,3.023,3.052,3.081,3.033
216,217,72.852,-166.799,-93.353,-12151.624,-7903.121,3.037,3.016,3.063,3.055,3.07,3.038,3.05,3.053,3.048,3.059,3.064,3.034,3.016,3.031,3.048,3.0,3.022,3.008,3.037,3.062,3.024,3.054,3.082,3.036
228,229,72.873,-166.817,-93.175,-12156.448,-7886.186,3.037,3.016,3.064,3.056,3.07,3.038,3.049,3.053,3.048,3.06,3.065,3.034,3.015,3.031,3.048,3.0,3.022,3.006,3.037,3.062,3.025,3.054,3.083,3.036
240,241,72.854,-166.788,-93.06,-12151.129,-7874.668,3.039,3.016,3.066,3.058,3.071,3.038,3.048,3.052,3.05,3.06,3.066,3.034,3.016,3.032,3.049,3.0,3.022,3.005,3.037,3.063,3.026,3.055,3.084,3.037
252,253,72.869,-166.765,-92.987,-12151.934,-7868.513,3.04,3.017,3.067,3.059,3.071,3.038,3.047,3.051,3.05,3.06,3.066,3.034,3.015,3.032,3.049,3.0,3.02,3.002,3.035,3.062,3.027,3.056,3.084,3.036
264,265,72.861,-166.812,-92.868,-12154.063,-7857.436,3.04,3.017,3.069,3.061,3.072,3.038,3.046,3.051,3.051,3.061,3.067,3.033,3.015,3.033,3.051,3.001,3.019,3.0,3.035,3.063,3.028,3.058,3.085,3.034
276,277,72.846,-166.817,-92.598,-12151.915,-7829.859,3.036,3.017,3.068,3.061,3.072,3.037,3.045,3.05,3.051,3.061,3.068,3.028,3.012,3.033,3.052,3.002,3.02,3.0,3.035,3.064,3.029,3.059,3.086,3.032
288,289,72.916,-166.822,-92.406,-12164.046,-7811.082,3.037,3.019,3.07,3.064,3.074,3.038,3.046,3.051,3.053,3.063,3.069,3.027,3.013,3.035,3.053,3.004,3.021,3.0,3.036,3.066,3.031,3.061,3.087,3.032
300,301,73.111,-166.77,-92.413,-12192.769,-7811.828,3.047,3.026,3.076,3.071,3.079,3.045,3.056,3.059,3.063,3.071,3.082,3.041,3.022,3.043,3.062,3.013,3.029,3.0,3.044,3.075,3.042,3.072,3.098,3.045
312,313,73.184,-166.76,-92.203,-12204.252,-7793.031,3.051,3.029,3.08,3.075,3.082,3.047,3.058,3.061,3.066,3.073,3.085,3.044,3.026,3.046,3.065,3.016,3.03,3.0,3.046,3.078,3.045,3.076,3.101,3.049
324,325,73.248,-166.807,-91.997,-12218.277,-7773.686,3.053,3.031,3.082,3.077,3.084,3.049,3.058,3.062,3.068,3.075,3.087,3.044,3.027,3.048,3.067,3.018,3.03,3.0,3.047,3.079,3.046,3.077,3.102,3.05
336,337,73.234,-166.767,-91.739,-12213.02,-7748.654,3.051,3.032,3.083,3.078,3.085,3.05,3.059,3.062,3.069,3.076,3.087,3.04,3.025,3.049,3.068,3.019,3.031,3.0,3.047,3.08,3.048,3.079,3.103,3.048
348,349,73.195,-166.828,-91.714,-12210.98,-7743.009,3.05,3.031,3.083,3.078,3.084,3.049,3.059,3.061,3.068,3.075,3.089,3.041,3.025,3.049,3.067,3.018,3.029,3.0,3.047,3.08,3.047,3.08,3.104,3.049
360,361,73.235,-166.8,-91.447,-12215.638,-7717.074,3.051,3.031,3.084,3.079,3.085,3.05,3.06,3.061,3.07,3.076,3.091,3.041,3.026,3.051,3.069,3.019,3.028,3.0,3.048,3.081,3.048,3.081,3.105,3.05
372,373,73.223,-166.803,-91.207,-12213.802,-7693.249,3.05,3.031,3.085,3.08,3.086,3.05,3.06,3.061,3.07,3.077,3.092,3.039,3.025,3.052,3.069,3.02,3.027,3.0,3.049,3.081,3.049,3.082,3.106,3.048
384,385,73.216,-166.834,-91.041,-12214.907,-7677.644,3.051,3.033,3.087,3.081,3.087,3.051,3.06,3.061,3.072,3.078,3.093,3.039,3.025,3.054,3.07,3.022,3.028,3.0,3.049,3.082,3.05,3.084,3.107,3.049
396,397,73.185,-166.763,-91.177,-12204.555,-7687.587,3.044,3.029,3.082,3.076,3.082,3.047,3.056,3.059,3.068,3.073,3.089,3.032,3.019,3.048,3.066,3.017,3.028,3.0,3.047,3.079,3.047,3.081,3.104,3.042
408,409,73.216,-166.763,-90.844,-12209.757,-7657.85,3.049,3.031,3.086,3.081,3.086,3.05,3.06,3.061,3.072,3.076,3.094,3.035,3.022,3.052,3.069,3.02,3.026,3.0,3.05,3.082,3.05,3.085,3.108,3.047
420,421,73.233,-166.811,-90.608,-12216.017,-7634.792,3.051,3.032,3.087,3.081,3.087,3.051,3.061,3.061,3.072,3.076,3.096,3.036,3.022,3.054,3.07,3.021,3.025,3.0,3.05,3.083,3.05,3.087,3.109,3.048
432,433,73.287,-166.804,-90.492,-12224.65,-7623.543,3.053,3.033,3.088,3.082,3.088,3.053,3.062,3.061,3.073,3.077,3.098,3.037,3.024,3.055,3.071,3.021,3.023,3.0,3.051,3.083,3.05,3.088,3.111,3.049
444,445,73.329,-166.83,-90.306,-12233.461,-7605.961,3.056,3.035,3.09,3.083,3.09,3.055,3.062,3.062,3.075,3.078,3.099,3.04,3.026,3.058,3.073,3.023,3.023,3.0,3.052,3.084,3.051,3.09,3.112,3.051
456,457,73.361,-166.789,-90.145,-12235.825,-7590.606,3.058,3.038,3.093,3.085,3.092,3.056,3.062,3.062,3.076,3.079,3.102,3.041,3.027,3.06,3.075,3.025,3.023,3.0,3.053,3.086,3.053,3.092,3.113,3.053
468,469,73.394,-166.822,-89.936,-12243.745,-7571.176,3.06,3.04,3.095,3.087,3.093,3.059,3.063,3.063,3.078,3.081,3.104,3.042,3.028,3.063,3.077,3.026,3.024,3.0,3.054,3.088,3.055,3.094,3.115,3.053
480,481,73.423,-166.768,-89.756,-12244.628,-7553.297,3.063,3.042,3.097,3.088,3.095,3.06,3.064,3.064,3.079,3.081,3.106,3.044,3.029,3.065,3.079,3.028,3.024,3.0,3.055,3.089,3.056,3.096,3.116,3.055
492,493,73.402,-166.814,-89.954,-12244.451,-7573.283,3.066,3.04,3.094,3.085,3.092,3.058,3.061,3.063,3.078,3.081,3.105,3.059,3.036,3.061,3.076,3.023,3.026,3.0,3.053,3.087,3.053,3.093,3.115,3.059
504,505,73.41,-166.799,-89.778,-12244.748,-7556.767,3.071,3.042,3.096,3.086,3.094,3.06,3.063,3.064,3.08,3.081,3.108,3.061,3.039,3.064,3.077,3.023,3.025,3.0,3.055,3.088,3.054,3.095,3.117,3.062
516,517,73.453,-166.761,-89.676,-12249.134,-7547.902,3.073,3.045,3.099,3.088,3.096,3.062,3.064,3.065,3.082,3.082,3.11,3.063,3.041,3.067,3.079,3.025,3.025,3.0,3.056,3.09,3.055,3.098,3.119,3.063
528,529,73.494,-166.784,-89.491,-12257.629,-7530.342,3.077,3.048,3.101,3.089,3.097,3.065,3.065,3.066,3.084,3.083,3.113,3.067,3.043,3.07,3.08,3.027,3.025,3.0,3.057,3.091,3.057,3.1,3.121,3.066
540,541,73.586,-166.756,-89.318,-12270.995,-7513.566,3.08,3.05,3.104,3.09,3.099,3.067,3.066,3.066,3.086,3.084,3.115,3.069,3.046,3.073,3.082,3.029,3.025,3.0,3.06,3.092,3.058,3.101,3.124,3.068
552,553,73.618,-166.793,-89.051,-12279.021,-7488.17,3.079,3.051,3.106,3.092,3.101,3.068,3.066,3.066,3.088,3.085,3.117,3.067,3.045,3.075,3.084,3.031,3.025,3.0,3.061,3.094,3.059,3.103,3.125,3.067
564,565,73.638,-166.755,-88.804,-12279.473,-7464.522,3.081,3.054,3.108,3.094,3.102,3.07,3.066,3.067,3.09,3.086,3.119,3.067,3.045,3.078,3.085,3.033,3.025,3.0,3.063,3.095,3.061,3.105,3.126,3.068
576,577,73.678,-166.795,-88.676,-12289.095,-7453.395,3.086,3.057,3.11,3.095,3.104,3.072,3.068,3.068,3.092,3.087,3.122,3.074,3.051,3.081,3.087,3.035,3.025,3.0,3.065,3.096,3.062,3.107,3.128,3.071
588,589,73.711,-166.794,-88.488,-12294.551,-7435.944,3.088,3.06,3.114,3.098,3.107,3.076,3.067,3.069,3.095,3.089,3.124,3.076,3.053,3.085,3.09,3.038,3.025,3.0,3.066,3.098,3.064,3.109,3.131,3.072
590,591,73.731,-166.797,-88.432,-12298.075,-7429.98,3.088,3.06,3.113,3.098,3.107,3.076,3.067,3.069,3.095,3.089,3.124,3.076,3.052,3.084,3.09,3.038,3.024,3.0,3.066,3.098,3.064,3.109,3.131,3.071

File: #9 (45도_충전0.5C_방전0.5C)_충방전싸이클_result.csv
,Cycle,Voltage(V),Current(A),Capacity(Ah),Power(W),wattHour(Wh),CELL1,CELL2,CELL3,CELL4,CELL5,CELL6,CELL7,CELL8,CELL9,CELL10,CELL11,CELL12,CELL13,CELL14,CELL15,CELL16,CELL17,CELL18,CELL19,CELL20,CELL21,CELL22,CELL23,CELL24
0,1,73.265,-55.599,-96.201,-4073.484,-8353.93,3.077,3.065,3.041,3.063,3.075,3.069,3.062,3.074,3.0,3.005,3.084,3.032,3.091,3.078,3.042,3.083,3.0,3.081,3.072,3.03,3.078,3.013,3.024,3.028
14,15,73.255,-55.61,-96.291,-4073.677,-8370.109,3.083,3.069,3.047,3.068,3.081,3.073,3.06,3.071,3.0,3.003,3.083,3.03,3.094,3.079,3.047,3.088,3.0,3.079,3.07,3.03,3.079,3.014,3.027,3.032
28,29,73.281,-55.589,-96.183,-4073.595,-8363.05,3.084,3.069,3.05,3.069,3.082,3.074,3.06,3.069,3.0,3.003,3.082,3.031,3.096,3.078,3.048,3.09,3.0,3.078,3.069,3.03,3.079,3.014,3.029,3.034
42,43,73.322,-55.605,-96.521,-4077.042,-8396.495,3.087,3.072,3.054,3.072,3.084,3.075,3.059,3.066,3.0,3.001,3.081,3.03,3.098,3.08,3.053,3.094,3.002,3.077,3.067,3.031,3.079,3.015,3.031,3.038
56,57,73.302,-55.609,-96.425,-4076.252,-8389.631,3.087,3.072,3.055,3.073,3.085,3.075,3.057,3.064,3.0,3.0,3.079,3.029,3.099,3.079,3.054,3.094,3.001,3.075,3.066,3.031,3.079,3.015,3.031,3.038
70,71,73.322,-55.589,-96.319,-4075.876,-8381.048,3.088,3.072,3.057,3.074,3.087,3.076,3.057,3.063,3.001,3.0,3.079,3.029,3.1,3.079,3.055,3.095,3.001,3.074,3.066,3.031,3.079,3.016,3.031,3.039
84,85,73.334,-55.591,-96.21,-4076.68,-8371.956,3.088,3.073,3.059,3.075,3.088,3.077,3.056,3.063,3.002,3.0,3.078,3.028,3.101,3.079,3.057,3.096,3.002,3.074,3.065,3.031,3.08,3.016,3.032,3.04
98,99,73.335,-55.614,-96.131,-4078.414,-8365.447,3.088,3.073,3.06,3.076,3.089,3.078,3.055,3.062,3.001,3.0,3.077,3.027,3.101,3.079,3.058,3.096,3.002,3.074,3.065,3.032,3.08,3.017,3.032,3.039
112,113,73.463,-55.599,-96.246,-4084.5,-8373.517,3.094,3.078,3.07,3.079,3.092,3.085,3.064,3.067,3.0,3.006,3.079,3.031,3.107,3.085,3.068,3.104,3.013,3.08,3.069,3.043,3.09,3.025,3.038,3.046
126,127,73.462,-55.605,-96.075,-4084.858,-8359.368,3.094,3.079,3.072,3.079,3.093,3.085,3.064,3.068,3.0,3.006,3.08,3.031,3.109,3.086,3.069,3.105,3.012,3.081,3.068,3.042,3.091,3.024,3.039,3.046
140,141,73.466,-55.6,-95.869,-4084.697,-8341.09,3.094,3.08,3.073,3.079,3.093,3.085,3.063,3.067,3.0,3.005,3.079,3.031,3.108,3.086,3.07,3.106,3.012,3.08,3.068,3.042,3.092,3.025,3.038,3.045
154,155,73.467,-55.611,-95.699,-4085.582,-8326.006,3.094,3.081,3.074,3.08,3.093,3.085,3.062,3.067,3.0,3.006,3.078,3.031,3.107,3.086,3.07,3.107,3.011,3.08,3.068,3.043,3.092,3.025,3.039,3.044
168,169,73.491,-55.584,-95.458,-4084.902,-8303.738,3.092,3.081,3.074,3.08,3.093,3.084,3.06,3.066,3.0,3.006,3.076,3.028,3.106,3.086,3.071,3.107,3.01,3.08,3.067,3.043,3.091,3.025,3.039,3.043
182,183,73.478,-55.605,-95.285,-4085.755,-8287.766,3.092,3.082,3.074,3.08,3.094,3.084,3.06,3.066,3.0,3.006,3.075,3.028,3.106,3.087,3.072,3.107,3.01,3.079,3.066,3.044,3.091,3.025,3.039,3.043
196,197,73.464,-55.613,-95.059,-4085.539,-8266.549,3.093,3.082,3.075,3.08,3.094,3.084,3.06,3.067,3.0,3.005,3.075,3.028,3.106,3.086,3.071,3.107,3.01,3.079,3.066,3.042,3.091,3.025,3.041,3.043
210,211,73.667,-55.607,-95.057,-4096.421,-8266.238,3.102,3.09,3.083,3.088,3.099,3.091,3.069,3.075,3.0,3.019,3.081,3.04,3.112,3.093,3.079,3.115,3.023,3.088,3.074,3.054,3.099,3.037,3.054,3.055
224,225,73.662,-55.613,-94.87,-4096.52,-8250.283,3.102,3.091,3.084,3.088,3.101,3.092,3.07,3.075,3.0,3.019,3.082,3.041,3.114,3.094,3.081,3.117,3.023,3.088,3.073,3.054,3.099,3.037,3.054,3.056
238,239,73.73,-55.6,-94.666,-4099.375,-8231.728,3.103,3.091,3.084,3.088,3.101,3.091,3.069,3.075,3.0,3.018,3.082,3.042,3.115,3.094,3.08,3.117,3.022,3.087,3.073,3.054,3.099,3.037,3.053,3.056
252,253,73.685,-55.599,-94.524,-4096.86,-8218.761,3.104,3.092,3.085,3.088,3.102,3.091,3.069,3.075,3.0,3.018,3.083,3.043,3.116,3.095,3.081,3.117,3.022,3.087,3.072,3.054,3.1,3.036,3.053,3.056
266,267,73.69,-55.608,-94.319,-4097.734,-8199.248,3.103,3.092,3.085,3.087,3.101,3.091,3.069,3.075,3.0,3.018,3.082,3.043,3.116,3.095,3.081,3.117,3.021,3.087,3.072,3.054,3.099,3.036,3.054,3.056
280,281,73.651,-55.61,-94.157,-4095.682,-8183.898,3.104,3.092,3.085,3.087,3.101,3.09,3.069,3.074,3.0,3.018,3.082,3.044,3.116,3.095,3.08,3.117,3.021,3.086,3.071,3.053,3.099,3.036,3.054,3.056
294,295,73.684,-55.587,-93.995,-4095.88,-8168.81,3.105,3.093,3.086,3.087,3.102,3.091,3.069,3.075,3.0,3.019,3.082,3.045,3.116,3.095,3.081,3.117,3.021,3.086,3.071,3.054,3.099,3.036,3.055,3.057
308,309,73.636,-55.606,-94.129,-4094.621,-8181.687,3.103,3.09,3.084,3.084,3.099,3.089,3.067,3.072,3.0,3.018,3.079,3.043,3.114,3.092,3.078,3.115,3.02,3.084,3.069,3.052,3.096,3.034,3.054,3.055
322,323,73.679,-55.588,-93.94,-4095.702,-8164.653,3.104,3.092,3.086,3.086,3.101,3.09,3.067,3.073,3.0,3.018,3.08,3.045,3.115,3.093,3.079,3.116,3.02,3.084,3.07,3.053,3.098,3.035,3.055,3.057
336,337,73.694,-55.601,-93.723,-4097.457,-8143.653,3.106,3.093,3.085,3.085,3.101,3.09,3.067,3.074,3.0,3.019,3.081,3.046,3.115,3.094,3.079,3.116,3.02,3.084,3.07,3.054,3.098,3.035,3.055,3.058
350,351,73.673,-55.615,-93.515,-4097.301,-8123.726,3.106,3.093,3.086,3.085,3.101,3.09,3.067,3.074,3.0,3.019,3.081,3.047,3.116,3.094,3.08,3.117,3.02,3.084,3.069,3.054,3.098,3.035,3.056,3.059
364,365,73.662,-55.583,-93.339,-4094.368,-8106.782,3.106,3.094,3.086,3.085,3.102,3.089,3.067,3.074,3.0,3.019,3.081,3.047,3.116,3.094,3.08,3.117,3.02,3.084,3.069,3.054,3.098,3.035,3.057,3.059
378,379,73.705,-55.611,-93.489,-4098.813,-8124.739,3.109,3.095,3.088,3.087,3.103,3.09,3.067,3.074,3.0,3.019,3.082,3.048,3.118,3.095,3.082,3.119,3.02,3.084,3.069,3.054,3.1,3.036,3.058,3.061
392,393,73.696,-55.599,-93.299,-4097.467,-8106.4,3.109,3.096,3.089,3.086,3.104,3.09,3.067,3.074,3.0,3.02,3.082,3.049,3.118,3.096,3.082,3.119,3.021,3.084,3.069,3.055,3.1,3.036,3.059,3.061
406,407,73.838,-55.615,-93.355,-4106.513,-8111.045,3.11,3.099,3.092,3.089,3.104,3.094,3.072,3.078,3.0,3.027,3.083,3.053,3.118,3.098,3.086,3.122,3.028,3.087,3.073,3.062,3.103,3.043,3.065,3.067
420,421,73.86,-55.583,-93.053,-4105.354,-8083.55,3.113,3.101,3.094,3.091,3.107,3.095,3.073,3.08,3.0,3.028,3.085,3.055,3.12,3.1,3.088,3.123,3.029,3.089,3.074,3.063,3.105,3.043,3.066,3.068
434,435,73.819,-55.617,-92.812,-4105.566,-8060.341,3.113,3.101,3.095,3.091,3.108,3.095,3.073,3.08,3.0,3.028,3.085,3.055,3.121,3.1,3.088,3.124,3.029,3.089,3.074,3.063,3.105,3.044,3.067,3.068
448,449,73.846,-55.61,-92.626,-4106.546,-8042.395,3.113,3.101,3.095,3.091,3.108,3.096,3.073,3.08,3.0,3.029,3.085,3.055,3.121,3.101,3.088,3.124,3.029,3.088,3.075,3.063,3.106,3.044,3.067,3.069
462,463,73.809,-55.612,-92.613,-4104.683,-8042.767,3.117,3.103,3.095,3.091,3.108,3.097,3.075,3.081,3.0,3.029,3.087,3.06,3.123,3.1,3.087,3.123,3.028,3.088,3.075,3.063,3.105,3.043,3.068,3.072
476,477,73.84,-55.586,-92.661,-4104.452,-8046.848,3.118,3.103,3.095,3.089,3.108,3.096,3.075,3.081,3.0,3.029,3.088,3.063,3.126,3.101,3.087,3.123,3.028,3.088,3.074,3.063,3.104,3.043,3.068,3.074
490,491,73.86,-55.601,-92.154,-4106.697,-7996.646,3.116,3.102,3.095,3.089,3.108,3.095,3.074,3.081,3.0,3.03,3.087,3.061,3.124,3.1,3.086,3.123,3.028,3.087,3.073,3.063,3.104,3.043,3.069,3.072
504,505,73.821,-55.596,-92.444,-4104.146,-8026.914,3.114,3.101,3.094,3.088,3.106,3.093,3.071,3.078,3.0,3.027,3.083,3.057,3.122,3.1,3.087,3.123,3.028,3.086,3.072,3.063,3.103,3.043,3.067,3.07
518,519,73.843,-55.613,-92.302,-4106.623,-8013.582,3.114,3.102,3.095,3.089,3.107,3.094,3.071,3.078,3.0,3.028,3.083,3.056,3.122,3.101,3.088,3.123,3.029,3.086,3.073,3.063,3.105,3.043,3.069,3.071
532,533,73.876,-55.6,-92.256,-4107.458,-8010.253,3.113,3.103,3.096,3.09,3.108,3.094,3.071,3.079,3.0,3.028,3.083,3.055,3.122,3.101,3.089,3.125,3.029,3.086,3.073,3.064,3.105,3.045,3.069,3.071
546,547,73.833,-55.605,-91.878,-4105.507,-7972.316,3.113,3.102,3.096,3.089,3.108,3.093,3.07,3.079,3.0,3.029,3.083,3.054,3.121,3.101,3.088,3.124,3.029,3.086,3.072,3.064,3.106,3.044,3.07,3.07
560,561,73.854,-55.615,-91.631,-4107.414,-7948.653,3.113,3.103,3.097,3.089,3.108,3.093,3.069,3.079,3.0,3.029,3.083,3.054,3.121,3.1,3.088,3.124,3.029,3.085,3.072,3.064,3.105,3.044,3.069,3.07
574,575,73.833,-55.607,-91.435,-4105.669,-7929.678,3.113,3.103,3.097,3.089,3.108,3.093,3.069,3.079,3.0,3.029,3.083,3.054,3.12,3.101,3.088,3.124,3.029,3.084,3.072,3.065,3.105,3.043,3.07,3.07
588,589,73.906,-55.59,-91.509,-4108.381,-7939.683,3.116,3.104,3.097,3.089,3.109,3.094,3.071,3.08,3.0,3.029,3.084,3.057,3.122,3.102,3.09,3.125,3.029,3.085,3.073,3.065,3.106,3.044,3.071,3.072
602,603,73.824,-55.591,-91.568,-4103.99,-7940.399,3.112,3.102,3.097,3.088,3.105,3.094,3.071,3.079,3.0,3.032,3.08,3.055,3.118,3.1,3.088,3.124,3.032,3.086,3.072,3.067,3.105,3.046,3.073,3.071
616,617,73.886,-55.61,-91.269,-4108.834,-7915.084,3.114,3.105,3.099,3.09,3.108,3.094,3.071,3.08,3.0,3.033,3.082,3.056,3.12,3.102,3.091,3.126,3.033,3.086,3.073,3.068,3.107,3.047,3.073,3.073
630,631,73.846,-55.621,-91.31,-4107.368,-7917.281,3.113,3.103,3.097,3.087,3.105,3.092,3.071,3.079,3.0,3.032,3.081,3.057,3.119,3.099,3.087,3.122,3.031,3.084,3.071,3.066,3.104,3.046,3.073,3.072
644,645,73.845,-55.592,-91.008,-4105.205,-7889.782,3.115,3.105,3.098,3.089,3.108,3.094,3.071,3.08,3.0,3.032,3.082,3.058,3.12,3.101,3.089,3.124,3.032,3.084,3.072,3.067,3.106,3.047,3.073,3.073
658,659,73.857,-55.603,-90.768,-4106.617,-7867.014,3.115,3.106,3.1,3.09,3.109,3.094,3.071,3.081,3.0,3.033,3.083,3.056,3.12,3.102,3.091,3.126,3.032,3.084,3.072,3.068,3.107,3.047,3.074,3.073
672,673,73.869,-55.604,-90.585,-4107.402,-7849.675,3.115,3.106,3.1,3.09,3.11,3.094,3.07,3.081,3.0,3.033,3.083,3.057,3.121,3.103,3.091,3.126,3.032,3.084,3.072,3.068,3.107,3.047,3.074,3.073
686,687,73.87,-55.579,-90.335,-4105.618,-7825.6,3.115,3.106,3.101,3.09,3.11,3.094,3.07,3.081,3.0,3.033,3.083,3.057,3.12,3.103,3.091,3.126,3.032,3.084,3.072,3.068,3.107,3.047,3.075,3.073
699,700,73.87,-55.604,-90.876,-4107.455,-7877.07,3.115,3.105,3.099,3.088,3.106,3.094,3.071,3.08,3.0,3.034,3.082,3.06,3.12,3.101,3.09,3.124,3.033,3.084,3.071,3.068,3.106,3.048,3.075,3.075