Folder: MVFIT-GAN/data

File: #6 (35도_충전0.5C_방전1.5C)_충방전 싸이클_result.csv
,Cycle,Voltage(V),Current(A),Capacity(Ah),Power(W),wattHour(Wh),CELL1,CELL2,CELL3,CELL4,CELL5,CELL6,CELL7,CELL8,CELL9,CELL10,CELL11,CELL12,CELL13,CELL14,CELL15,CELL16,CELL17,CELL18,CELL19,CELL20,CELL21,CELL22,CELL23,CELL24
0,1,74.183,-166.797,-89.499,-12373.486,-7536.809,3.05,3.09,3.043,3.083,3.109,3.1,3.135,3.147,3.08,3.092,3.135,3.078,3.014,3.065,3.0,3.044,3.104,3.115,3.159,3.158,3.111,3.134,3.165,3.101
12,13,73.998,-166.787,-89.935,-12341.806,-7578.909,3.038,3.079,3.043,3.081,3.103,3.091,3.125,3.139,3.076,3.087,3.126,3.07,3.009,3.06,3.0,3.042,3.096,3.107,3.148,3.149,3.105,3.125,3.155,3.092
24,25,73.95,-166.784,-90.065,-12333.695,-7592.647,3.036,3.074,3.04,3.079,3.099,3.088,3.122,3.136,3.074,3.086,3.122,3.071,3.01,3.058,3.0,3.041,3.094,3.103,3.144,3.145,3.101,3.121,3.15,3.089
36,37,73.898,-166.792,-89.984,-12325.639,-7587.273,3.028,3.069,3.039,3.079,3.097,3.084,3.119,3.134,3.073,3.084,3.118,3.062,3.002,3.056,3.0,3.041,3.094,3.101,3.142,3.143,3.1,3.119,3.146,3.083
48,49,73.947,-166.763,-89.717,-12331.677,-7566.881,3.027,3.071,3.043,3.084,3.1,3.087,3.121,3.136,3.079,3.088,3.12,3.061,3.0,3.061,3.009,3.048,3.099,3.104,3.145,3.145,3.106,3.122,3.147,3.081
60,61,73.937,-166.802,-89.781,-12332.905,-7572.256,3.024,3.069,3.042,3.083,3.099,3.084,3.118,3.134,3.078,3.087,3.118,3.059,3.0,3.059,3.008,3.049,3.097,3.102,3.142,3.143,3.103,3.12,3.144,3.078
72,73,73.904,-166.809,-89.843,-12327.841,-7580.538,3.024,3.066,3.042,3.084,3.097,3.08,3.116,3.132,3.079,3.087,3.117,3.058,3.0,3.062,3.01,3.051,3.1,3.1,3.14,3.141,3.103,3.118,3.141,3.077
84,85,73.937,-166.77,-89.822,-12330.566,-7579.521,3.024,3.066,3.042,3.084,3.097,3.08,3.116,3.132,3.081,3.088,3.118,3.058,3.0,3.064,3.011,3.052,3.103,3.101,3.142,3.142,3.105,3.119,3.141,3.079
96,97,74.161,-166.809,-89.243,-12370.787,-7527.715,3.021,3.08,3.057,3.096,3.111,3.094,3.128,3.143,3.091,3.098,3.125,3.053,3.0,3.068,3.027,3.065,3.109,3.116,3.153,3.154,3.117,3.132,3.153,3.08
108,109,74.179,-166.808,-88.911,-12373.669,-7499.582,3.015,3.079,3.059,3.099,3.113,3.095,3.129,3.144,3.094,3.1,3.126,3.049,3.0,3.07,3.032,3.07,3.112,3.117,3.154,3.155,3.119,3.133,3.152,3.075
120,121,73.77,-166.82,-90.531,-12306.251,-7635.556,3.031,3.058,3.033,3.077,3.09,3.074,3.109,3.125,3.072,3.08,3.111,3.06,3.001,3.046,3.0,3.039,3.086,3.093,3.133,3.134,3.097,3.111,3.137,3.086
132,133,73.719,-166.792,-90.36,-12295.65,-7618.462,3.024,3.056,3.031,3.075,3.089,3.074,3.108,3.124,3.07,3.078,3.11,3.059,3.003,3.045,3.0,3.038,3.085,3.093,3.132,3.133,3.095,3.11,3.135,3.081
144,145,73.731,-166.803,-90.366,-12298.495,-7617.589,3.023,3.057,3.031,3.074,3.089,3.074,3.108,3.123,3.07,3.078,3.111,3.061,3.006,3.044,3.0,3.037,3.084,3.095,3.133,3.133,3.094,3.11,3.136,3.081
156,157,73.702,-166.777,-90.368,-12291.767,-7616.822,3.018,3.056,3.03,3.074,3.089,3.074,3.108,3.123,3.07,3.077,3.11,3.057,3.002,3.043,3.0,3.036,3.084,3.095,3.134,3.134,3.094,3.11,3.136,3.077
168,169,73.731,-166.832,-90.228,-12300.62,-7603.583,3.017,3.057,3.031,3.074,3.09,3.074,3.108,3.123,3.07,3.077,3.11,3.055,3.0,3.042,3.001,3.037,3.084,3.096,3.134,3.135,3.094,3.111,3.136,3.076
180,181,73.725,-166.809,-89.595,-12297.886,-7545.079,3.023,3.06,3.032,3.073,3.091,3.075,3.11,3.124,3.071,3.077,3.11,3.059,3.0,3.042,3.0,3.036,3.084,3.097,3.135,3.136,3.095,3.111,3.138,3.08
192,193,73.845,-166.848,-89.772,-12320.886,-7562.858,3.022,3.063,3.038,3.08,3.095,3.081,3.114,3.128,3.077,3.083,3.114,3.058,3.0,3.047,3.006,3.043,3.089,3.103,3.139,3.14,3.099,3.116,3.141,3.081
204,205,73.837,-166.814,-89.941,-12317.1,-7573.778,3.019,3.063,3.037,3.078,3.095,3.082,3.114,3.126,3.075,3.081,3.111,3.057,3.0,3.045,3.007,3.042,3.085,3.103,3.137,3.139,3.096,3.115,3.142,3.08
216,217,73.828,-166.843,-89.709,-12317.693,-7550.95,3.017,3.063,3.036,3.077,3.094,3.083,3.115,3.127,3.074,3.08,3.111,3.056,3.0,3.045,3.006,3.041,3.086,3.104,3.138,3.139,3.096,3.115,3.142,3.079
228,229,73.825,-166.833,-89.506,-12316.42,-7532.617,3.017,3.062,3.036,3.077,3.094,3.085,3.117,3.127,3.074,3.079,3.112,3.058,3.0,3.045,3.005,3.04,3.085,3.104,3.138,3.139,3.095,3.114,3.142,3.077
240,241,73.718,-166.791,-89.729,-12295.433,-7549.998,3.019,3.056,3.031,3.074,3.09,3.081,3.112,3.123,3.072,3.077,3.11,3.064,3.004,3.042,3.0,3.036,3.079,3.099,3.132,3.134,3.089,3.109,3.138,3.078
252,253,73.766,-166.797,-89.419,-12303.931,-7520.967,3.022,3.057,3.033,3.074,3.09,3.081,3.113,3.123,3.072,3.078,3.111,3.068,3.006,3.043,3.0,3.036,3.079,3.098,3.132,3.133,3.09,3.109,3.137,3.079
264,265,73.706,-166.804,-89.507,-12294.534,-7527.99,3.022,3.056,3.031,3.074,3.09,3.08,3.112,3.122,3.072,3.078,3.111,3.067,3.005,3.042,3.0,3.036,3.079,3.098,3.131,3.133,3.089,3.108,3.137,3.078
276,277,73.84,-166.799,-89.382,-12316.453,-7518.366,3.023,3.067,3.044,3.082,3.098,3.084,3.116,3.128,3.079,3.084,3.115,3.057,3.0,3.049,3.012,3.048,3.088,3.106,3.138,3.142,3.099,3.118,3.144,3.078
288,289,73.782,-166.765,-89.584,-12304.221,-7534.672,3.02,3.061,3.038,3.078,3.093,3.08,3.112,3.125,3.075,3.08,3.112,3.057,3.0,3.046,3.007,3.043,3.083,3.102,3.134,3.138,3.094,3.113,3.14,3.076
300,301,73.783,-166.797,-89.562,-12306.794,-7529.524,3.022,3.063,3.039,3.077,3.093,3.081,3.113,3.124,3.074,3.08,3.111,3.057,3.0,3.044,3.006,3.042,3.081,3.102,3.134,3.137,3.093,3.113,3.14,3.077
312,313,73.77,-166.821,-89.507,-12306.473,-7523.452,3.019,3.059,3.037,3.077,3.091,3.079,3.11,3.122,3.073,3.078,3.109,3.055,3.0,3.043,3.006,3.042,3.079,3.102,3.131,3.135,3.092,3.111,3.139,3.076
324,325,73.707,-166.829,-89.373,-12296.514,-7510.485,3.013,3.058,3.037,3.076,3.089,3.078,3.109,3.122,3.073,3.078,3.109,3.053,3.0,3.044,3.007,3.043,3.079,3.101,3.13,3.134,3.091,3.11,3.138,3.072
336,337,73.667,-166.797,-89.373,-12287.43,-7508.401,3.014,3.054,3.033,3.073,3.086,3.076,3.107,3.119,3.07,3.074,3.107,3.054,3.0,3.041,3.002,3.039,3.075,3.098,3.127,3.132,3.087,3.107,3.136,3.072
348,349,73.61,-166.793,-89.298,-12277.599,-7500.485,3.016,3.054,3.033,3.073,3.086,3.077,3.106,3.118,3.07,3.074,3.107,3.057,3.0,3.04,3.001,3.037,3.073,3.097,3.125,3.13,3.085,3.106,3.134,3.071
360,361,73.596,-166.786,-88.842,-12274.721,-7451.01,3.0,3.048,3.053,3.09,3.088,3.061,3.085,3.11,3.079,3.083,3.097,3.042,3.0,3.052,3.034,3.064,3.077,3.08,3.105,3.12,3.089,3.102,3.12,3.053
372,373,73.566,-166.78,-88.669,-12269.283,-7435.701,3.008,3.049,3.046,3.083,3.087,3.065,3.091,3.112,3.074,3.079,3.099,3.05,3.0,3.046,3.023,3.053,3.073,3.084,3.111,3.122,3.086,3.102,3.124,3.059
384,385,73.618,-166.847,-88.767,-12282.976,-7441.54,3.0,3.045,3.058,3.096,3.089,3.056,3.076,3.107,3.081,3.086,3.093,3.041,3.002,3.057,3.044,3.071,3.077,3.075,3.097,3.115,3.089,3.101,3.114,3.046
396,397,73.834,-166.796,-88.832,-12315.218,-7458.662,3.022,3.067,3.046,3.081,3.095,3.08,3.11,3.123,3.077,3.083,3.111,3.052,3.0,3.047,3.014,3.048,3.082,3.105,3.131,3.137,3.094,3.115,3.14,3.073
408,409,73.823,-166.798,-88.632,-12313.569,-7442.603,3.022,3.067,3.046,3.083,3.096,3.083,3.111,3.125,3.078,3.083,3.113,3.054,3.0,3.048,3.015,3.05,3.081,3.106,3.131,3.138,3.095,3.115,3.142,3.074
420,421,73.65,-166.801,-88.749,-12284.991,-7445.784,3.017,3.058,3.037,3.075,3.088,3.075,3.104,3.118,3.069,3.074,3.106,3.05,3.0,3.042,3.005,3.042,3.073,3.099,3.125,3.131,3.087,3.108,3.136,3.07
432,433,73.681,-166.782,-88.44,-12288.599,-7415.517,3.017,3.057,3.035,3.073,3.088,3.075,3.103,3.117,3.068,3.073,3.106,3.052,3.0,3.04,3.003,3.04,3.07,3.098,3.123,3.13,3.085,3.106,3.135,3.071
444,445,73.538,-166.789,-88.71,-12265.36,-7432.196,3.01,3.048,3.044,3.079,3.085,3.062,3.086,3.108,3.07,3.075,3.096,3.047,3.0,3.043,3.019,3.051,3.067,3.083,3.106,3.119,3.082,3.099,3.123,3.059
456,457,73.487,-166.787,-88.517,-12256.748,-7418.094,3.0,3.04,3.06,3.097,3.088,3.048,3.064,3.102,3.078,3.083,3.086,3.034,3.005,3.057,3.046,3.074,3.071,3.069,3.084,3.107,3.083,3.095,3.106,3.039
468,469,73.823,-166.827,-88.139,-12315.7,-7389.808,3.014,3.068,3.051,3.083,3.098,3.079,3.109,3.124,3.081,3.086,3.113,3.052,3.0,3.05,3.019,3.053,3.081,3.105,3.129,3.138,3.095,3.116,3.141,3.061
480,481,73.701,-166.796,-88.298,-12292.921,-7401.344,3.016,3.063,3.043,3.079,3.092,3.074,3.102,3.119,3.073,3.079,3.109,3.05,3.0,3.046,3.012,3.048,3.073,3.1,3.124,3.132,3.088,3.11,3.137,3.062
492,493,73.802,-166.773,-87.88,-12308.17,-7366.699,3.012,3.067,3.046,3.082,3.096,3.078,3.106,3.123,3.077,3.081,3.112,3.048,3.0,3.051,3.016,3.053,3.076,3.105,3.128,3.137,3.092,3.113,3.14,3.059
504,505,73.835,-166.755,-87.597,-12312.431,-7344.465,3.012,3.07,3.049,3.085,3.099,3.08,3.107,3.124,3.078,3.083,3.112,3.047,3.0,3.054,3.02,3.056,3.079,3.106,3.128,3.138,3.094,3.114,3.14,3.06
516,517,73.836,-166.803,-87.384,-12316.018,-7324.414,3.015,3.071,3.048,3.084,3.099,3.082,3.108,3.124,3.078,3.082,3.113,3.048,3.0,3.054,3.019,3.056,3.078,3.107,3.129,3.139,3.094,3.115,3.142,3.063
528,529,73.764,-166.784,-87.361,-12302.586,-7321.769,3.01,3.069,3.047,3.083,3.097,3.077,3.103,3.122,3.076,3.081,3.111,3.044,3.0,3.055,3.02,3.057,3.075,3.105,3.127,3.136,3.092,3.113,3.139,3.057
540,541,73.753,-166.809,-87.33,-12302.655,-7318.365,3.011,3.068,3.045,3.081,3.096,3.077,3.104,3.121,3.074,3.078,3.111,3.044,3.0,3.054,3.017,3.055,3.075,3.106,3.127,3.136,3.091,3.112,3.139,3.059
552,553,73.773,-166.798,-87.305,-12305.176,-7316.291,3.015,3.07,3.046,3.082,3.097,3.078,3.104,3.122,3.075,3.079,3.111,3.043,3.0,3.055,3.019,3.057,3.075,3.107,3.128,3.137,3.093,3.114,3.141,3.062
564,565,73.753,-166.805,-87.272,-12302.376,-7312.472,3.015,3.071,3.046,3.081,3.097,3.079,3.104,3.122,3.075,3.079,3.111,3.044,3.0,3.055,3.018,3.057,3.073,3.106,3.127,3.137,3.092,3.113,3.14,3.063
576,577,73.805,-166.83,-87.007,-12312.997,-7287.595,3.018,3.072,3.047,3.081,3.098,3.081,3.106,3.123,3.076,3.079,3.112,3.045,3.0,3.056,3.018,3.057,3.073,3.108,3.128,3.138,3.093,3.114,3.142,3.065
588,589,73.795,-166.819,-86.825,-12310.429,-7274.231,3.009,3.07,3.053,3.086,3.099,3.077,3.101,3.121,3.08,3.083,3.11,3.041,3.0,3.059,3.028,3.064,3.076,3.103,3.122,3.134,3.094,3.112,3.136,3.052
593,594,73.783,-166.772,-86.858,-12305.0,-7276.976,3.01,3.071,3.054,3.087,3.099,3.079,3.102,3.122,3.08,3.083,3.111,3.042,3.0,3.06,3.028,3.064,3.076,3.104,3.122,3.134,3.094,3.113,3.137,3.053

File: #7 (35도_충전0.5C_방전0.5C)_충방전싸이클_result.csv
,Cycle,Voltage(V),Current(A),Capacity(Ah),Power(W),wattHour(Wh),CELL1,CELL2,CELL3,CELL4,CELL5,CELL6,CELL7,CELL8,CELL9,CELL10,CELL11,CELL12,CELL13,CELL14,CELL15,CELL16,CELL17,CELL18,CELL19,CELL20,CELL21,CELL22,CELL23,CELL24
0,1,72.796,-55.592,-94.809,-4046.909,-8222.106,3.022,3.064,3.032,3.055,3.053,3.033,3.049,3.058,3.026,3.05,3.033,3.017,3.0,3.014,3.014,3.005,3.004,3.033,3.045,3.043,3.049,3.057,3.0,3.054
14,15,72.94,-55.605,-94.472,-4055.825,-8194.08,3.027,3.07,3.042,3.063,3.059,3.038,3.053,3.065,3.035,3.06,3.04,3.022,3.011,3.023,3.025,3.014,3.011,3.042,3.049,3.049,3.056,3.06,3.0,3.054
28,29,73.03,-55.602,-94.244,-4060.618,-8174.761,3.03,3.073,3.047,3.067,3.062,3.04,3.055,3.067,3.041,3.066,3.043,3.027,3.02,3.03,3.031,3.019,3.015,3.048,3.051,3.053,3.06,3.06,3.0,3.054
42,43,73.183,-55.601,-94.872,-4069.029,-8235.674,3.043,3.081,3.058,3.077,3.065,3.042,3.055,3.072,3.05,3.076,3.046,3.031,3.031,3.043,3.044,3.031,3.022,3.056,3.053,3.057,3.066,3.061,3.0,3.056
56,57,73.245,-55.595,-94.593,-4072.002,-8210.795,3.047,3.084,3.06,3.079,3.066,3.043,3.057,3.073,3.051,3.078,3.046,3.033,3.032,3.046,3.046,3.034,3.024,3.058,3.053,3.057,3.067,3.061,3.0,3.058
70,71,73.224,-55.608,-94.398,-4071.843,-8193.009,3.047,3.084,3.061,3.081,3.065,3.043,3.057,3.074,3.05,3.077,3.046,3.034,3.031,3.045,3.047,3.034,3.025,3.058,3.053,3.055,3.067,3.06,3.0,3.059
84,85,73.214,-55.612,-94.202,-4071.554,-8174.609,3.046,3.084,3.061,3.081,3.065,3.043,3.057,3.075,3.049,3.076,3.045,3.034,3.029,3.044,3.046,3.034,3.026,3.057,3.052,3.054,3.067,3.06,3.0,3.058
98,99,73.227,-55.6,-93.959,-4071.399,-8151.444,3.046,3.085,3.062,3.082,3.066,3.044,3.057,3.077,3.049,3.077,3.046,3.033,3.027,3.043,3.045,3.035,3.028,3.057,3.053,3.054,3.068,3.061,3.0,3.057
112,113,73.203,-55.611,-94.087,-4070.854,-8160.88,3.043,3.084,3.059,3.078,3.067,3.045,3.056,3.075,3.046,3.072,3.044,3.033,3.025,3.041,3.042,3.033,3.029,3.054,3.055,3.052,3.065,3.06,3.0,3.057
126,127,73.233,-55.585,-93.887,-4070.691,-8143.058,3.046,3.085,3.061,3.079,3.067,3.046,3.056,3.076,3.047,3.074,3.045,3.034,3.025,3.042,3.043,3.035,3.03,3.055,3.056,3.053,3.067,3.059,3.0,3.058
140,141,73.224,-55.613,-93.753,-4072.239,-8130.895,3.048,3.086,3.061,3.08,3.067,3.046,3.056,3.075,3.046,3.074,3.044,3.036,3.027,3.042,3.042,3.034,3.029,3.056,3.057,3.052,3.066,3.058,3.0,3.061
154,155,73.306,-55.588,-93.361,-4074.923,-8093.894,3.045,3.088,3.066,3.084,3.071,3.048,3.06,3.079,3.052,3.079,3.047,3.035,3.024,3.044,3.047,3.039,3.034,3.057,3.058,3.055,3.071,3.061,3.0,3.054
168,169,73.216,-55.597,-93.597,-4070.585,-8115.239,3.053,3.083,3.056,3.075,3.063,3.042,3.053,3.071,3.041,3.071,3.043,3.044,3.04,3.042,3.039,3.031,3.028,3.058,3.057,3.05,3.064,3.054,3.0,3.071
182,183,73.172,-55.589,-93.492,-4067.545,-8102.061,3.049,3.084,3.06,3.077,3.066,3.044,3.056,3.073,3.045,3.072,3.043,3.033,3.021,3.038,3.039,3.032,3.029,3.052,3.053,3.051,3.065,3.056,3.0,3.061
196,197,73.263,-55.603,-93.181,-4073.677,-8075.926,3.05,3.089,3.064,3.082,3.069,3.046,3.057,3.077,3.048,3.076,3.044,3.037,3.025,3.042,3.043,3.036,3.032,3.055,3.056,3.052,3.069,3.058,3.0,3.061
210,211,73.212,-55.605,-93.372,-4070.948,-8093.618,3.048,3.087,3.062,3.079,3.067,3.044,3.055,3.074,3.045,3.073,3.043,3.035,3.023,3.039,3.041,3.033,3.03,3.052,3.055,3.051,3.067,3.056,3.0,3.06
224,225,73.225,-55.605,-93.14,-4071.638,-8071.929,3.05,3.089,3.063,3.081,3.068,3.045,3.056,3.075,3.046,3.074,3.044,3.036,3.024,3.04,3.041,3.034,3.031,3.054,3.056,3.052,3.068,3.056,3.0,3.062
238,239,73.211,-55.599,-92.957,-4070.461,-8055.097,3.052,3.09,3.065,3.082,3.069,3.046,3.056,3.076,3.046,3.075,3.044,3.036,3.024,3.04,3.042,3.035,3.032,3.055,3.057,3.052,3.069,3.057,3.0,3.063
252,253,73.235,-55.609,-92.807,-4072.538,-8040.816,3.053,3.09,3.065,3.082,3.07,3.046,3.056,3.076,3.046,3.075,3.044,3.037,3.026,3.041,3.042,3.035,3.033,3.055,3.058,3.052,3.069,3.056,3.0,3.065
266,267,73.264,-55.588,-92.631,-4072.579,-8024.52,3.053,3.092,3.066,3.084,3.071,3.047,3.056,3.077,3.047,3.077,3.044,3.037,3.025,3.041,3.043,3.036,3.034,3.056,3.058,3.053,3.071,3.057,3.0,3.063
280,281,73.244,-55.584,-92.538,-4071.158,-8015.701,3.054,3.092,3.067,3.085,3.071,3.046,3.055,3.077,3.048,3.077,3.044,3.037,3.025,3.042,3.043,3.037,3.034,3.056,3.058,3.053,3.071,3.057,3.0,3.064
294,295,73.316,-55.607,-92.361,-4076.885,-7998.871,3.054,3.093,3.068,3.085,3.072,3.047,3.055,3.077,3.048,3.078,3.044,3.037,3.025,3.042,3.044,3.037,3.035,3.056,3.059,3.054,3.072,3.057,3.0,3.064
308,309,73.217,-55.603,-92.588,-4071.056,-8019.371,3.053,3.09,3.064,3.08,3.068,3.043,3.053,3.073,3.044,3.073,3.041,3.035,3.024,3.039,3.039,3.033,3.031,3.053,3.056,3.05,3.068,3.054,3.0,3.065
322,323,73.218,-55.611,-92.475,-4071.754,-8009.302,3.056,3.092,3.065,3.082,3.069,3.044,3.053,3.074,3.044,3.074,3.042,3.036,3.026,3.04,3.04,3.033,3.032,3.055,3.057,3.051,3.07,3.055,3.0,3.069
336,337,73.236,-55.597,-92.398,-4071.714,-8002.568,3.057,3.093,3.066,3.083,3.069,3.044,3.052,3.074,3.043,3.074,3.041,3.037,3.027,3.04,3.04,3.034,3.032,3.055,3.058,3.051,3.07,3.054,3.0,3.07
350,351,73.256,-55.596,-92.232,-4072.741,-7986.836,3.058,3.093,3.067,3.083,3.07,3.044,3.052,3.074,3.044,3.075,3.042,3.037,3.027,3.04,3.041,3.034,3.033,3.055,3.058,3.052,3.071,3.055,3.0,3.07
364,365,73.237,-55.602,-92.133,-4072.122,-7977.243,3.059,3.094,3.068,3.084,3.07,3.044,3.052,3.075,3.045,3.075,3.042,3.037,3.027,3.04,3.041,3.034,3.034,3.055,3.059,3.052,3.072,3.055,3.0,3.071
378,379,73.279,-55.596,-91.971,-4074.013,-7961.875,3.059,3.095,3.068,3.084,3.071,3.043,3.052,3.074,3.045,3.076,3.042,3.037,3.027,3.041,3.041,3.035,3.034,3.055,3.059,3.052,3.072,3.055,3.0,3.071
392,393,73.278,-55.601,-91.779,-4074.385,-7942.936,3.059,3.094,3.067,3.083,3.07,3.043,3.052,3.074,3.044,3.074,3.042,3.037,3.027,3.039,3.04,3.034,3.033,3.055,3.059,3.052,3.072,3.055,3.0,3.072
406,407,73.123,-55.611,-92.086,-4066.493,-7970.907,3.055,3.09,3.063,3.079,3.066,3.04,3.049,3.07,3.04,3.069,3.038,3.034,3.024,3.036,3.036,3.03,3.031,3.05,3.056,3.049,3.068,3.052,3.0,3.069
420,421,73.174,-55.6,-91.885,-4068.477,-7953.224,3.058,3.094,3.066,3.082,3.068,3.041,3.05,3.071,3.042,3.072,3.039,3.035,3.026,3.037,3.038,3.032,3.032,3.053,3.058,3.051,3.071,3.053,3.0,3.072
434,435,73.246,-55.587,-91.762,-4071.555,-7942.063,3.06,3.095,3.067,3.083,3.069,3.041,3.05,3.073,3.043,3.073,3.04,3.036,3.027,3.038,3.039,3.033,3.033,3.054,3.059,3.051,3.072,3.054,3.0,3.073
448,449,73.185,-55.623,-91.943,-4070.771,-7959.381,3.063,3.094,3.065,3.08,3.066,3.038,3.047,3.07,3.039,3.071,3.038,3.039,3.032,3.038,3.037,3.03,3.031,3.054,3.058,3.049,3.07,3.052,3.0,3.079
462,463,73.207,-55.591,-91.775,-4069.7,-7942.829,3.062,3.094,3.066,3.081,3.067,3.039,3.047,3.07,3.04,3.072,3.039,3.037,3.03,3.038,3.037,3.031,3.032,3.053,3.058,3.05,3.071,3.053,3.0,3.077
476,477,73.226,-55.611,-91.663,-4072.178,-7932.001,3.062,3.095,3.067,3.082,3.068,3.039,3.047,3.071,3.04,3.073,3.039,3.037,3.03,3.039,3.038,3.031,3.033,3.054,3.058,3.051,3.072,3.053,3.0,3.077
490,491,73.237,-55.607,-91.518,-4072.479,-7918.51,3.062,3.097,3.069,3.084,3.069,3.04,3.048,3.072,3.042,3.074,3.039,3.037,3.029,3.039,3.039,3.033,3.034,3.054,3.059,3.052,3.073,3.054,3.0,3.076
504,505,73.247,-55.61,-91.302,-4073.255,-7898.721,3.06,3.098,3.071,3.085,3.071,3.041,3.05,3.073,3.044,3.074,3.039,3.033,3.023,3.038,3.04,3.034,3.034,3.051,3.057,3.052,3.073,3.054,3.0,3.07
518,519,73.237,-55.615,-91.305,-4073.05,-7899.474,3.064,3.099,3.071,3.085,3.07,3.041,3.049,3.073,3.043,3.074,3.039,3.035,3.026,3.039,3.04,3.033,3.034,3.053,3.058,3.052,3.074,3.054,3.0,3.074
532,533,73.26,-55.59,-91.14,-4072.509,-7884.17,3.063,3.1,3.072,3.087,3.072,3.042,3.05,3.074,3.045,3.076,3.041,3.036,3.027,3.04,3.042,3.035,3.036,3.054,3.06,3.053,3.076,3.055,3.0,3.074
546,547,73.3,-55.622,-90.979,-4077.054,-7869.242,3.063,3.1,3.074,3.089,3.073,3.043,3.05,3.076,3.046,3.077,3.041,3.035,3.027,3.042,3.043,3.037,3.037,3.054,3.06,3.054,3.077,3.056,3.0,3.073
560,561,73.299,-55.593,-90.773,-4074.918,-7849.028,3.063,3.102,3.076,3.09,3.075,3.044,3.052,3.077,3.048,3.079,3.042,3.035,3.026,3.043,3.045,3.038,3.039,3.055,3.061,3.055,3.079,3.058,3.0,3.071
574,575,75.606,-55.588,-89.376,-4202.754,-7741.702,3.155,3.184,3.166,3.177,3.166,3.142,3.147,3.168,3.146,3.168,3.14,3.135,3.128,3.142,3.143,3.14,3.14,3.15,3.155,3.152,3.168,3.154,3.112,3.161
588,589,73.34,-55.602,-90.604,-4077.894,-7833.833,3.063,3.103,3.078,3.092,3.076,3.044,3.051,3.078,3.049,3.08,3.042,3.034,3.025,3.044,3.046,3.04,3.04,3.055,3.061,3.057,3.08,3.058,3.0,3.07
602,603,73.238,-55.593,-90.835,-4071.475,-7854.689,3.059,3.098,3.072,3.086,3.07,3.039,3.047,3.071,3.043,3.073,3.037,3.031,3.023,3.039,3.041,3.034,3.035,3.05,3.056,3.051,3.074,3.053,3.0,3.068
616,617,73.258,-55.6,-90.196,-4073.141,-7792.1,3.066,3.106,3.076,3.09,3.073,3.041,3.049,3.075,3.043,3.075,3.039,3.031,3.024,3.04,3.043,3.036,3.035,3.052,3.061,3.054,3.08,3.056,3.0,3.076
630,631,73.219,-55.609,-90.314,-4071.638,-7808.981,3.064,3.1,3.072,3.087,3.071,3.039,3.046,3.072,3.042,3.073,3.037,3.031,3.023,3.037,3.039,3.033,3.034,3.051,3.058,3.052,3.076,3.054,3.0,3.074
644,645,73.279,-55.615,-90.256,-4075.442,-7802.766,3.065,3.102,3.075,3.089,3.073,3.041,3.048,3.074,3.044,3.076,3.039,3.033,3.026,3.04,3.042,3.035,3.037,3.053,3.06,3.054,3.078,3.056,3.0,3.074
658,659,73.27,-55.601,-90.163,-4073.866,-7793.332,3.066,3.103,3.076,3.09,3.074,3.041,3.048,3.074,3.045,3.076,3.039,3.032,3.025,3.04,3.042,3.036,3.037,3.053,3.06,3.054,3.079,3.057,3.0,3.075
672,673,73.29,-55.599,-89.829,-4074.867,-7760.11,3.063,3.103,3.077,3.091,3.076,3.042,3.049,3.076,3.046,3.078,3.04,3.032,3.023,3.041,3.043,3.037,3.039,3.053,3.061,3.055,3.079,3.058,3.0,3.072
686,687,73.312,-55.604,-89.72,-4076.474,-7749.633,3.064,3.104,3.078,3.092,3.076,3.043,3.049,3.076,3.047,3.079,3.04,3.032,3.023,3.042,3.044,3.038,3.039,3.054,3.061,3.056,3.08,3.058,3.0,3.071
700,701,73.312,-55.603,-89.57,-4076.358,-7734.895,3.063,3.104,3.079,3.093,3.077,3.043,3.05,3.077,3.048,3.079,3.041,3.032,3.022,3.043,3.045,3.039,3.04,3.054,3.062,3.057,3.081,3.059,3.0,3.07